,subject,age,gender,trial,colour1,colour2,col1_name,col2_name,colour_distance,category,accuracy,rt
0,85,19,f,1,"[1, -0.85, -0.7]","[1, -0.7, -0.4]",red,pink,0.3,across,1,649.625103
1,85,19,f,2,"[1, -0.475, 0.050000000000000044]","[1, -0.7, -0.4]",pink,pink,0.45,within,1,608.2425522
2,85,19,f,3,"[1, -1.0, -1.0]","[1, -0.475, 0.050000000000000044]",red,pink,1.05,across,1,609.1192012
3,85,19,f,4,"[1, -0.85, -0.7]","[1, -0.925, -0.85]",red,red,0.15,within,1,650.9644421
4,85,19,f,5,"[1, -0.32500000000000007, 0.34999999999999987]","[1, -0.85, -0.7]",pink,red,1.05,across,1,579.2679955
5,85,19,f,6,"[1, -0.7, -0.4]","[1, -0.55, -0.10000000000000009]",pink,pink,0.3,within,1,861.9824168
6,85,19,f,7,"[1, -0.775, -0.55]","[1, -0.475, 0.050000000000000044]",pink,pink,0.6,within,1,1313.612066
7,85,19,f,8,"[1, -0.4, 0.19999999999999996]","[1, -0.85, -0.7]",pink,red,0.9,across,1,556.8218833
8,85,19,f,9,"[1, -0.475, 0.050000000000000044]","[1, -0.32500000000000007, 0.34999999999999987]",pink,pink,0.3,within,1,611.9492026
9,85,19,f,10,"[1, -0.32500000000000007, 0.34999999999999987]","[1, -0.625, -0.25]",pink,pink,0.6,within,1,562.4531603
10,85,19,f,11,"[1, -0.55, -0.10000000000000009]","[1, -0.625, -0.25]",pink,pink,0.15,within,0,555.7795482
11,85,19,f,12,"[1, -0.32500000000000007, 0.34999999999999987]","[1, -0.475, 0.050000000000000044]",pink,pink,0.3,within,1,2393.691821
12,85,19,f,13,"[1, -0.32500000000000007, 0.34999999999999987]","[1, -0.55, -0.10000000000000009]",pink,pink,0.45,within,1,831.1555608
13,85,19,f,14,"[1, -0.85, -0.7]","[1, -1.0, -1.0]",red,red,0.3,within,1,715.7626
14,85,19,f,15,"[1, -0.775, -0.55]","[1, -0.7, -0.4]",pink,pink,0.15,within,0,959.4663983
15,85,19,f,16,"[1, -0.625, -0.25]","[1, -0.85, -0.7]",pink,red,0.45,across,1,608.0276219
16,85,19,f,17,"[1, -0.85, -0.7]","[1, -0.625, -0.25]",red,pink,0.45,across,1,547.5634647
17,85,19,f,18,"[1, -0.775, -0.55]","[1, -0.55, -0.10000000000000009]",pink,pink,0.45,within,1,616.4304228
18,85,19,f,19,"[1, -1.0, -1.0]","[1, -0.7, -0.4]",red,pink,0.6,across,1,585.5686856
19,85,19,f,20,"[1, -0.4, 0.19999999999999996]","[1, -0.55, -0.10000000000000009]",pink,pink,0.3,within,1,778.6427997
20,85,19,f,21,"[1, -0.925, -0.85]","[1, -0.85, -0.7]",red,red,0.15,within,1,1125.674222
21,85,19,f,22,"[1, -0.925, -0.85]","[1, -0.775, -0.55]",red,pink,0.3,across,1,583.4004029
22,85,19,f,23,"[1, -0.625, -0.25]","[1, -0.4, 0.19999999999999996]",pink,pink,0.45,within,1,556.3838153
23,85,19,f,24,"[1, -0.7, -0.4]","[1, -0.775, -0.55]",pink,pink,0.15,within,1,587.896499
24,85,19,f,25,"[1, -0.7, -0.4]","[1, -0.475, 0.050000000000000044]",pink,pink,0.45,within,1,594.0674102
25,85,19,f,26,"[1, -1.0, -1.0]","[1, -0.4, 0.19999999999999996]",red,pink,1.2,across,1,481.4721342
26,85,19,f,27,"[1, -0.4, 0.19999999999999996]","[1, -0.625, -0.25]",pink,pink,0.45,within,1,523.0578173
27,85,19,f,28,"[1, -0.775, -0.55]","[1, -1.0, -1.0]",pink,red,0.45,across,1,498.7101616
28,85,19,f,29,"[1, -0.55, -0.10000000000000009]","[1, -0.775, -0.55]",pink,pink,0.45,within,1,943.3055873
29,85,19,f,30,"[1, -0.85, -0.7]","[1, -0.4, 0.19999999999999996]",red,pink,0.9,across,1,722.1628043
30,85,19,f,31,"[1, -0.925, -0.85]","[1, -0.475, 0.050000000000000044]",red,pink,0.9,across,1,464.7650206
31,85,19,f,32,"[1, -0.925, -0.85]","[1, -0.7, -0.4]",red,pink,0.45,across,1,651.6261608
32,85,19,f,33,"[1, -0.925, -0.85]","[1, -0.4, 0.19999999999999996]",red,pink,1.05,across,1,426.4704902
33,85,19,f,34,"[1, -0.775, -0.55]","[1, -0.85, -0.7]",pink,red,0.15,across,1,666.4861047
34,85,19,f,35,"[1, -0.775, -0.55]","[1, -0.32500000000000007, 0.34999999999999987]",pink,pink,0.9,within,1,492.0580938
35,85,19,f,36,"[1, -0.775, -0.55]","[1, -0.625, -0.25]",pink,pink,0.3,within,0,587.8144254
36,85,19,f,37,"[1, -0.625, -0.25]","[1, -0.32500000000000007, 0.34999999999999987]",pink,pink,0.6,within,1,548.5078244
37,85,19,f,38,"[1, -0.55, -0.10000000000000009]","[1, -0.475, 0.050000000000000044]",pink,pink,0.15,within,0,497.184105
38,85,19,f,39,"[1, -0.625, -0.25]","[1, -1.0, -1.0]",pink,red,0.75,across,1,546.258494
39,85,19,f,40,"[1, -0.4, 0.19999999999999996]","[1, -1.0, -1.0]",pink,red,1.2,across,1,501.1739094
40,85,19,f,41,"[1, -0.4, 0.19999999999999996]","[1, -0.7, -0.4]",pink,pink,0.6,within,1,634.4014703
41,85,19,f,42,"[1, -0.4, 0.19999999999999996]","[1, -0.775, -0.55]",pink,pink,0.75,within,1,451.808159
42,85,19,f,43,"[1, -0.4, 0.19999999999999996]","[1, -0.32500000000000007, 0.34999999999999987]",pink,pink,0.15,within,1,589.3676688
43,85,19,f,44,"[1, -0.7, -0.4]","[1, -0.4, 0.19999999999999996]",pink,pink,0.6,within,1,441.653599
44,85,19,f,45,"[1, -0.925, -0.85]","[1, -1.0, -1.0]",red,red,0.15,within,1,511.9978825
45,85,19,f,46,"[1, -0.475, 0.050000000000000044]","[1, -0.4, 0.19999999999999996]",pink,pink,0.15,within,0,1776.953109
46,85,19,f,47,"[1, -0.7, -0.4]","[1, -1.0, -1.0]",pink,red,0.6,across,1,614.6719953
47,85,19,f,48,"[1, -0.32500000000000007, 0.34999999999999987]","[1, -0.925, -0.85]",pink,red,1.2,across,1,534.1551981
48,85,19,f,49,"[1, -0.32500000000000007, 0.34999999999999987]","[1, -0.4, 0.19999999999999996]",pink,pink,0.15,within,1,3284.085564
49,85,19,f,50,"[1, -0.925, -0.85]","[1, -0.32500000000000007, 0.34999999999999987]",red,pink,1.2,across,1,625.4292836
50,85,19,f,51,"[1, -0.475, 0.050000000000000044]","[1, -0.775, -0.55]",pink,pink,0.6,within,1,774.1138741
51,85,19,f,52,"[1, -0.475, 0.050000000000000044]","[1, -0.925, -0.85]",pink,red,0.9,across,1,536.4101712
52,85,19,f,53,"[1, -0.625, -0.25]","[1, -0.7, -0.4]",pink,pink,0.15,within,0,733.5264115
53,85,19,f,54,"[1, -0.55, -0.10000000000000009]","[1, -0.925, -0.85]",pink,red,0.75,across,1,782.1755565
54,85,19,f,55,"[1, -0.475, 0.050000000000000044]","[1, -0.55, -0.10000000000000009]",pink,pink,0.15,within,1,530.6860484
55,85,19,f,56,"[1, -1.0, -1.0]","[1, -0.55, -0.10000000000000009]",red,pink,0.9,across,1,701.2812207
56,85,19,f,57,"[1, -1.0, -1.0]","[1, -0.925, -0.85]",red,red,0.15,within,1,2881.643155
57,85,19,f,58,"[1, -0.475, 0.050000000000000044]","[1, -0.625, -0.25]",pink,pink,0.3,within,1,937.3762804
58,85,19,f,59,"[1, -0.85, -0.7]","[1, -0.775, -0.55]",red,pink,0.15,across,1,494.064794
59,85,19,f,60,"[1, -0.625, -0.25]","[1, -0.55, -0.10000000000000009]",pink,pink,0.15,within,0,1635.777743
60,85,19,f,61,"[1, -1.0, -1.0]","[1, -0.85, -0.7]",red,red,0.3,within,1,505.2673318
61,85,19,f,62,"[1, -0.32500000000000007, 0.34999999999999987]","[1, -0.775, -0.55]",pink,pink,0.9,within,1,496.0222502
62,85,19,f,63,"[1, -0.4, 0.19999999999999996]","[1, -0.475, 0.050000000000000044]",pink,pink,0.15,within,0,443.1027116
63,85,19,f,64,"[1, -1.0, -1.0]","[1, -0.625, -0.25]",red,pink,0.75,across,1,539.3427646
64,85,19,f,65,"[1, -0.32500000000000007, 0.34999999999999987]","[1, -0.7, -0.4]",pink,pink,0.75,within,1,632.7379404
65,85,19,f,66,"[1, -1.0, -1.0]","[1, -0.775, -0.55]",red,pink,0.45,across,1,486.5119681
66,85,19,f,67,"[1, -0.625, -0.25]","[1, -0.475, 0.050000000000000044]",pink,pink,0.3,within,0,506.7066981
67,85,19,f,68,"[1, -0.775, -0.55]","[1, -0.4, 0.19999999999999996]",pink,pink,0.75,within,0,440.893392
68,85,19,f,69,"[1, -0.625, -0.25]","[1, -0.775, -0.55]",pink,pink,0.3,within,1,729.2826918
69,85,19,f,70,"[1, -0.4, 0.19999999999999996]","[1, -0.925, -0.85]",pink,red,1.05,across,1,637.2673789
70,85,19,f,71,"[1, -0.55, -0.10000000000000009]","[1, -0.32500000000000007, 0.34999999999999987]",pink,pink,0.45,within,1,1976.22173
71,85,19,f,72,"[1, -0.85, -0.7]","[1, -0.475, 0.050000000000000044]",red,pink,0.75,across,1,950.7768526
72,85,19,f,73,"[1, -0.625, -0.25]","[1, -0.925, -0.85]",pink,red,0.6,across,1,655.2491986
73,85,19,f,74,"[1, -0.475, 0.050000000000000044]","[1, -0.85, -0.7]",pink,red,0.75,across,1,741.0151174
74,85,19,f,75,"[1, -0.55, -0.10000000000000009]","[1, -0.85, -0.7]",pink,red,0.6,across,1,648.7156246
75,85,19,f,76,"[1, -0.7, -0.4]","[1, -0.32500000000000007, 0.34999999999999987]",pink,pink,0.75,within,1,739.2089846
76,85,19,f,77,"[1, -0.55, -0.10000000000000009]","[1, -0.4, 0.19999999999999996]",pink,pink,0.3,within,0,1099.313711
77,85,19,f,78,"[1, -0.775, -0.55]","[1, -0.925, -0.85]",pink,red,0.3,across,1,644.5129417
78,85,19,f,79,"[1, -0.7, -0.4]","[1, -0.85, -0.7]",pink,red,0.3,across,1,476.8365129
79,85,19,f,80,"[1, -0.7, -0.4]","[1, -0.625, -0.25]",pink,pink,0.15,within,0,857.1770056
80,85,19,f,81,"[1, -0.32500000000000007, 0.34999999999999987]","[1, -1.0, -1.0]",pink,red,1.35,across,1,597.948467
81,85,19,f,82,"[1, -0.85, -0.7]","[1, -0.55, -0.10000000000000009]",red,pink,0.6,across,1,589.1963401
82,85,19,f,83,"[1, -0.475, 0.050000000000000044]","[1, -1.0, -1.0]",pink,red,1.05,across,1,547.2474812
83,85,19,f,84,"[1, -0.85, -0.7]","[1, -0.32500000000000007, 0.34999999999999987]",red,pink,1.05,across,1,596.6963311
84,85,19,f,85,"[1, -0.7, -0.4]","[1, -0.925, -0.85]",pink,red,0.45,across,1,441.0631818
85,85,19,f,86,"[1, -0.925, -0.85]","[1, -0.55, -0.10000000000000009]",red,pink,0.75,across,1,675.2813202
86,85,19,f,87,"[1, -1.0, -1.0]","[1, -0.32500000000000007, 0.34999999999999987]",red,pink,1.35,across,1,676.1892597
87,85,19,f,88,"[1, -0.925, -0.85]","[1, -0.625, -0.25]",red,pink,0.6,across,1,528.7424422
88,85,19,f,89,"[1, -0.55, -0.10000000000000009]","[1, -1.0, -1.0]",pink,red,0.9,across,1,693.0410281
89,85,19,f,90,"[1, -0.55, -0.10000000000000009]","[1, -0.7, -0.4]",pink,pink,0.3,within,1,665.3883699
90,85,19,f,91,"[1, -0.4, 0.19999999999999996]","[1, -1.0, -1.0]",pink,red,1.2,across,1,570.4517487
91,85,19,f,92,"[1, -0.85, -0.7]","[1, -1.0, -1.0]",red,red,0.3,within,1,867.0171211
92,85,19,f,93,"[1, -0.55, -0.10000000000000009]","[1, -0.475, 0.050000000000000044]",pink,pink,0.15,within,1,712.3755238
93,85,19,f,94,"[1, -0.32500000000000007, 0.34999999999999987]","[1, -0.625, -0.25]",pink,pink,0.6,within,1,504.9754574
94,85,19,f,95,"[1, -0.625, -0.25]","[1, -0.32500000000000007, 0.34999999999999987]",pink,pink,0.6,within,1,697.939285
95,85,19,f,96,"[1, -0.775, -0.55]","[1, -0.625, -0.25]",pink,pink,0.3,within,1,748.4458588
96,85,19,f,97,"[1, -0.925, -0.85]","[1, -0.4, 0.19999999999999996]",red,pink,1.05,across,1,457.8000471
97,85,19,f,98,"[1, -0.32500000000000007, 0.34999999999999987]","[1, -0.4, 0.19999999999999996]",pink,pink,0.15,within,1,600.75795
98,85,19,f,99,"[1, -0.625, -0.25]","[1, -0.475, 0.050000000000000044]",pink,pink,0.3,within,1,532.3193136
99,85,19,f,100,"[1, -1.0, -1.0]","[1, -0.7, -0.4]",red,pink,0.6,across,1,745.363481
100,85,19,f,101,"[1, -0.475, 0.050000000000000044]","[1, -0.32500000000000007, 0.34999999999999987]",pink,pink,0.3,within,1,562.1120418
101,85,19,f,102,"[1, -0.775, -0.55]","[1, -0.7, -0.4]",pink,pink,0.15,within,1,664.3783512
102,85,19,f,103,"[1, -0.925, -0.85]","[1, -1.0, -1.0]",red,red,0.15,within,0,779.4507119
103,85,19,f,104,"[1, -0.7, -0.4]","[1, -0.775, -0.55]",pink,pink,0.15,within,1,615.462467
104,85,19,f,105,"[1, -0.775, -0.55]","[1, -0.85, -0.7]",pink,red,0.15,across,1,563.2933891
105,85,19,f,106,"[1, -0.7, -0.4]","[1, -0.32500000000000007, 0.34999999999999987]",pink,pink,0.75,within,1,609.2864262
106,85,19,f,107,"[1, -0.4, 0.19999999999999996]","[1, -0.85, -0.7]",pink,red,0.9,across,1,431.3979858
107,85,19,f,108,"[1, -0.32500000000000007, 0.34999999999999987]","[1, -0.7, -0.4]",pink,pink,0.75,within,1,780.6187223
108,85,19,f,109,"[1, -0.775, -0.55]","[1, -0.475, 0.050000000000000044]",pink,pink,0.6,within,1,591.3610322
109,85,19,f,110,"[1, -0.55, -0.10000000000000009]","[1, -0.775, -0.55]",pink,pink,0.45,within,1,629.4944931
110,85,19,f,111,"[1, -0.925, -0.85]","[1, -0.85, -0.7]",red,red,0.15,within,1,795.881853
111,85,19,f,112,"[1, -0.55, -0.10000000000000009]","[1, -0.4, 0.19999999999999996]",pink,pink,0.3,within,1,703.1099238
112,85,19,f,113,"[1, -0.32500000000000007, 0.34999999999999987]","[1, -0.475, 0.050000000000000044]",pink,pink,0.3,within,1,780.325822
113,85,19,f,114,"[1, -0.475, 0.050000000000000044]","[1, -0.4, 0.19999999999999996]",pink,pink,0.15,within,1,674.1056154
114,85,19,f,115,"[1, -0.7, -0.4]","[1, -0.4, 0.19999999999999996]",pink,pink,0.6,within,1,1048.611699
115,85,19,f,116,"[1, -0.925, -0.85]","[1, -0.32500000000000007, 0.34999999999999987]",red,pink,1.2,across,1,555.4671554
116,85,19,f,117,"[1, -0.475, 0.050000000000000044]","[1, -0.85, -0.7]",pink,red,0.75,across,1,816.4197533
117,85,19,f,118,"[1, -0.475, 0.050000000000000044]","[1, -0.775, -0.55]",pink,pink,0.6,within,1,553.5271399
118,85,19,f,119,"[1, -1.0, -1.0]","[1, -0.625, -0.25]",red,pink,0.75,across,1,510.5026035
119,85,19,f,120,"[1, -0.625, -0.25]","[1, -0.85, -0.7]",pink,red,0.45,across,1,846.4720393
120,85,19,f,121,"[1, -0.85, -0.7]","[1, -0.7, -0.4]",red,pink,0.3,across,1,724.086405
121,85,19,f,122,"[1, -0.475, 0.050000000000000044]","[1, -0.925, -0.85]",pink,red,0.9,across,1,405.981834
122,85,19,f,123,"[1, -1.0, -1.0]","[1, -0.775, -0.55]",red,pink,0.45,across,1,611.0166409
123,85,19,f,124,"[1, -1.0, -1.0]","[1, -0.55, -0.10000000000000009]",red,pink,0.9,across,1,579.9132995
124,85,19,f,125,"[1, -0.7, -0.4]","[1, -0.475, 0.050000000000000044]",pink,pink,0.45,within,1,614.831013
125,85,19,f,126,"[1, -0.55, -0.10000000000000009]","[1, -1.0, -1.0]",pink,red,0.9,across,1,591.8432147
126,85,19,f,127,"[1, -0.55, -0.10000000000000009]","[1, -0.32500000000000007, 0.34999999999999987]",pink,pink,0.45,within,1,546.0892171
127,85,19,f,128,"[1, -0.775, -0.55]","[1, -0.925, -0.85]",pink,red,0.3,across,1,638.1101726
128,85,19,f,129,"[1, -1.0, -1.0]","[1, -0.475, 0.050000000000000044]",red,pink,1.05,across,1,645.9199915
129,85,19,f,130,"[1, -0.925, -0.85]","[1, -0.775, -0.55]",red,pink,0.3,across,0,640.9755682
130,85,19,f,131,"[1, -0.32500000000000007, 0.34999999999999987]","[1, -0.775, -0.55]",pink,pink,0.9,within,1,582.6996993
131,85,19,f,132,"[1, -0.85, -0.7]","[1, -0.475, 0.050000000000000044]",red,pink,0.75,across,1,500.277255
132,85,19,f,133,"[1, -0.625, -0.25]","[1, -0.775, -0.55]",pink,pink,0.3,within,1,748.6715613
133,85,19,f,134,"[1, -0.85, -0.7]","[1, -0.625, -0.25]",red,pink,0.45,across,1,543.8398867
134,85,19,f,135,"[1, -0.7, -0.4]","[1, -0.925, -0.85]",pink,red,0.45,across,1,642.7596438
135,85,19,f,136,"[1, -0.925, -0.85]","[1, -0.55, -0.10000000000000009]",red,pink,0.75,across,1,532.289049
136,85,19,f,137,"[1, -0.625, -0.25]","[1, -0.4, 0.19999999999999996]",pink,pink,0.45,within,1,730.117791
137,85,19,f,138,"[1, -0.4, 0.19999999999999996]","[1, -0.775, -0.55]",pink,pink,0.75,within,1,524.8536909
138,85,19,f,139,"[1, -0.7, -0.4]","[1, -0.85, -0.7]",pink,red,0.3,across,1,1358.589442
139,85,19,f,140,"[1, -0.32500000000000007, 0.34999999999999987]","[1, -0.85, -0.7]",pink,red,1.05,across,1,786.2689789
140,85,19,f,141,"[1, -0.7, -0.4]","[1, -0.55, -0.10000000000000009]",pink,pink,0.3,within,1,898.8919547
141,85,19,f,142,"[1, -0.775, -0.55]","[1, -1.0, -1.0]",pink,red,0.45,across,1,630.2470057
142,85,19,f,143,"[1, -0.775, -0.55]","[1, -0.55, -0.10000000000000009]",pink,pink,0.45,within,1,534.4065487
143,85,19,f,144,"[1, -0.775, -0.55]","[1, -0.32500000000000007, 0.34999999999999987]",pink,pink,0.9,within,1,835.4146693
144,85,19,f,145,"[1, -0.7, -0.4]","[1, -1.0, -1.0]",pink,red,0.6,across,1,523.1845184
145,85,19,f,146,"[1, -0.32500000000000007, 0.34999999999999987]","[1, -0.925, -0.85]",pink,red,1.2,across,1,949.4939391
146,85,19,f,147,"[1, -0.85, -0.7]","[1, -0.32500000000000007, 0.34999999999999987]",red,pink,1.05,across,1,576.8073255
147,85,19,f,148,"[1, -0.55, -0.10000000000000009]","[1, -0.7, -0.4]",pink,pink,0.3,within,0,739.9327714
148,85,19,f,149,"[1, -0.925, -0.85]","[1, -0.475, 0.050000000000000044]",red,pink,0.9,across,1,787.1040781
149,85,19,f,150,"[1, -0.475, 0.050000000000000044]","[1, -0.7, -0.4]",pink,pink,0.45,within,1,548.2964848
150,85,19,f,151,"[1, -0.775, -0.55]","[1, -0.4, 0.19999999999999996]",pink,pink,0.75,within,1,479.4336304
151,85,19,f,152,"[1, -1.0, -1.0]","[1, -0.32500000000000007, 0.34999999999999987]",red,pink,1.35,across,1,459.9570447
152,85,19,f,153,"[1, -0.475, 0.050000000000000044]","[1, -0.55, -0.10000000000000009]",pink,pink,0.15,within,1,840.0692701
153,85,19,f,154,"[1, -0.32500000000000007, 0.34999999999999987]","[1, -0.55, -0.10000000000000009]",pink,pink,0.45,within,1,559.5149243
154,85,19,f,155,"[1, -0.4, 0.19999999999999996]","[1, -0.7, -0.4]",pink,pink,0.6,within,1,1014.430083
155,85,19,f,156,"[1, -1.0, -1.0]","[1, -0.85, -0.7]",red,red,0.3,within,1,828.4666235
156,85,19,f,157,"[1, -0.625, -0.25]","[1, -0.925, -0.85]",pink,red,0.6,across,1,1063.739408
157,85,19,f,158,"[1, -0.55, -0.10000000000000009]","[1, -0.925, -0.85]",pink,red,0.75,across,1,908.0036666
158,85,19,f,159,"[1, -0.7, -0.4]","[1, -0.625, -0.25]",pink,pink,0.15,within,1,587.5682045
159,85,19,f,160,"[1, -0.625, -0.25]","[1, -0.7, -0.4]",pink,pink,0.15,within,1,9937.331653
160,85,19,f,161,"[1, -0.475, 0.050000000000000044]","[1, -0.625, -0.25]",pink,pink,0.3,within,0,1675.5655
161,85,19,f,162,"[1, -0.925, -0.85]","[1, -0.7, -0.4]",red,pink,0.45,across,1,572.2271039
162,85,19,f,163,"[1, -1.0, -1.0]","[1, -0.925, -0.85]",red,red,0.15,within,1,1177.285712
163,85,19,f,164,"[1, -0.85, -0.7]","[1, -0.55, -0.10000000000000009]",red,pink,0.6,across,1,439.9423638
164,85,19,f,165,"[1, -0.85, -0.7]","[1, -0.4, 0.19999999999999996]",red,pink,0.9,across,1,901.8789219
165,85,19,f,166,"[1, -0.85, -0.7]","[1, -0.775, -0.55]",red,pink,0.15,across,1,831.4859072
166,85,19,f,167,"[1, -0.925, -0.85]","[1, -0.625, -0.25]",red,pink,0.6,across,1,628.0156289
167,85,19,f,168,"[1, -0.4, 0.19999999999999996]","[1, -0.475, 0.050000000000000044]",pink,pink,0.15,within,1,1078.099729
168,85,19,f,169,"[1, -0.4, 0.19999999999999996]","[1, -0.625, -0.25]",pink,pink,0.45,within,1,781.0521737
169,85,19,f,170,"[1, -0.475, 0.050000000000000044]","[1, -1.0, -1.0]",pink,red,1.05,across,1,589.7031448
170,85,19,f,171,"[1, -0.55, -0.10000000000000009]","[1, -0.625, -0.25]",pink,pink,0.15,within,0,1645.612215
171,85,19,f,172,"[1, -0.55, -0.10000000000000009]","[1, -0.85, -0.7]",pink,red,0.6,across,1,550.5437634
172,85,19,f,173,"[1, -0.625, -0.25]","[1, -1.0, -1.0]",pink,red,0.75,across,1,529.2815633
173,85,19,f,174,"[1, -0.4, 0.19999999999999996]","[1, -0.32500000000000007, 0.34999999999999987]",pink,pink,0.15,within,0,1597.519632
174,85,19,f,175,"[1, -0.85, -0.7]","[1, -0.925, -0.85]",red,red,0.15,within,1,1256.847377
175,85,19,f,176,"[1, -0.4, 0.19999999999999996]","[1, -0.925, -0.85]",pink,red,1.05,across,1,511.011973
176,85,19,f,177,"[1, -0.4, 0.19999999999999996]","[1, -0.55, -0.10000000000000009]",pink,pink,0.3,within,1,2209.173883
177,85,19,f,178,"[1, -0.32500000000000007, 0.34999999999999987]","[1, -1.0, -1.0]",pink,red,1.35,across,1,648.6704841
178,85,19,f,179,"[1, -1.0, -1.0]","[1, -0.4, 0.19999999999999996]",red,pink,1.2,across,1,618.3806975
179,85,19,f,180,"[1, -0.625, -0.25]","[1, -0.55, -0.10000000000000009]",pink,pink,0.15,within,1,666.688724
